STUDYID,SITEID,USUBJID,AGE,AGEGR1,AGEGR1N,RACE,RACEN,SEX,TRTSDT,TRTEDT,TRTDUR,TRTP,TRTA,TRTAN,PARAM,PARAMCD,AVAL,STARTDT,ADT,CNSR,EVNTDESC,SRCDOM,SRCVAR,SRCSEQ,SAFFL
CDISCPILOT01,701,01-701-1015,63,<65,1,WHITE,1,F,02JAN2014,02JUL2014,182,Placebo,Placebo,0,Time to First Dermatologic Event,TTDE,2,02JAN2014,03JAN2014,0,Dematologic Event Occured,ADAE,ASTDT,1,Y
CDISCPILOT01,701,01-701-1023,64,<65,1,WHITE,1,M,05AUG2012,01SEP2012,28,Placebo,Placebo,0,Time to First Dermatologic Event,TTDE,3,05AUG2012,07AUG2012,0,Dematologic Event Occured,ADAE,ASTDT,1,Y
CDISCPILOT01,701,01-701-1028,71,65-80,2,WHITE,1,M,19JUL2013,14JAN2014,180,Xanomeline High Dose,Xanomeline High Dose,81,Time to First Dermatologic Event,TTDE,3,19JUL2013,21JUL2013,0,Dematologic Event Occured,ADAE,ASTDT,1,Y
CDISCPILOT01,701,01-701-1033,74,65-80,2,WHITE,1,M,18MAR2014,31MAR2014,14,Xanomeline Low Dose,Xanomeline Low Dose,54,Time to First Dermatologic Event,TTDE,28,18MAR2014,14APR2014,1,Study Completion Date,ADSL,RFENDT,,Y
CDISCPILOT01,701,01-701-1034,77,65-80,2,WHITE,1,F,01JUL2014,30DEC2014,183,Xanomeline High Dose,Xanomeline High Dose,81,Time to First Dermatologic Event,TTDE,58,01JUL2014,27AUG2014,0,Dematologic Event Occured,ADAE,ASTDT,1,Y
CDISCPILOT01,701,01-701-1047,85,>80,3,WHITE,1,F,12FEB2013,09MAR2013,26,Placebo,Placebo,0,Time to First Dermatologic Event,TTDE,46,12FEB2013,29MAR2013,1,Study Completion Date,ADSL,RFENDT,,Y
CDISCPILOT01,701,01-701-1097,68,65-80,2,WHITE,1,M,01JAN2014,09JUL2014,190,Xanomeline Low Dose,Xanomeline Low Dose,54,Time to First Dermatologic Event,TTDE,3,01JAN2014,03JAN2014,0,Dematologic Event Occured,ADAE,ASTDT,1,Y
CDISCPILOT01,701,01-701-1111,81,>80,3,WHITE,1,F,07SEP2012,16SEP2012,10,Xanomeline Low Dose,Xanomeline Low Dose,54,Time to First Dermatologic Event,TTDE,11,07SEP2012,17SEP2012,1,Study Completion Date,ADSL,RFENDT,,Y
CDISCPILOT01,701,01-701-1115,84,>80,3,WHITE,1,M,30NOV2012,23JAN2013,55,Xanomeline Low Dose,Xanomeline Low Dose,54,Time to First Dermatologic Event,TTDE,3,30NOV2012,02DEC2012,0,Dematologic Event Occured,ADAE,ASTDT,1,Y
CDISCPILOT01,701,01-701-1118,52,<65,1,WHITE,1,M,12MAR2014,09SEP2014,182,Placebo,Placebo,0,Time to First Dermatologic Event,TTDE,182,12MAR2014,09SEP2014,1,Study Completion Date,ADSL,RFENDT,,Y
CDISCPILOT01,701,01-701-1130,84,>80,3,WHITE,1,M,15FEB2014,16AUG2014,183,Placebo,Placebo,0,Time to First Dermatologic Event,TTDE,97,15FEB2014,22MAY2014,0,Dematologic Event Occured,ADAE,ASTDT,7,Y
CDISCPILOT01,701,01-701-1133,81,>80,3,WHITE,1,F,28OCT2012,28APR2013,183,Xanomeline High Dose,Xanomeline High Dose,81,Time to First Dermatologic Event,TTDE,61,28OCT2012,27DEC2012,0,Dematologic Event Occured,ADAE,ASTDT,1,Y
CDISCPILOT01,701,01-701-1146,75,65-80,2,WHITE,1,F,20MAY2013,26JUN2013,38,Xanomeline High Dose,Xanomeline High Dose,81,Time to First Dermatologic Event,TTDE,13,20MAY2013,01JUN2013,0,Dematologic Event Occured,ADAE,ASTDT,3,Y
CDISCPILOT01,701,01-701-1148,57,<65,1,WHITE,1,M,23AUG2013,20FEB2014,182,Xanomeline High Dose,Xanomeline High Dose,81,Time to First Dermatologic Event,TTDE,3,23AUG2013,25AUG2013,0,Dematologic Event Occured,ADAE,ASTDT,1,Y
CDISCPILOT01,701,01-701-1153,79,65-80,2,WHITE,1,F,23SEP2013,16MAR2014,175,Placebo,Placebo,0,Time to First Dermatologic Event,TTDE,191,23SEP2013,01APR2014,1,Study Completion Date,ADSL,RFENDT,,Y
CDISCPILOT01,701,01-701-1180,56,<65,1,WHITE,1,M,12FEB2013,18MAR2013,35,Xanomeline High Dose,Xanomeline High Dose,81,Time to First Dermatologic Event,TTDE,36,12FEB2013,19MAR2013,0,Dematologic Event Occured,ADAE,ASTDT,7,Y
CDISCPILOT01,701,01-701-1181,79,65-80,2,WHITE,1,F,05DEC2013,09DEC2013,5,Xanomeline High Dose,Xanomeline High Dose,81,Time to First Dermatologic Event,TTDE,8,05DEC2013,12DEC2013,1,Study Completion Date,ADSL,RFENDT,,Y
CDISCPILOT01,701,01-701-1188,71,65-80,2,WHITE,1,M,15FEB2013,24MAR2013,38,Xanomeline Low Dose,Xanomeline Low Dose,54,Time to First Dermatologic Event,TTDE,2,15FEB2013,16FEB2013,0,Dematologic Event Occured,ADAE,ASTDT,1,Y
CDISCPILOT01,701,01-701-1192,80,65-80,2,WHITE,1,F,22JUL2012,20JAN2013,183,Xanomeline Low Dose,Xanomeline Low Dose,54,Time to First Dermatologic Event,TTDE,17,22JUL2012,07AUG2012,0,Dematologic Event Occured,ADAE,ASTDT,3,Y
CDISCPILOT01,701,01-701-1203,81,>80,3,BLACK OR AFRICAN AMERICAN,2,F,02FEB2013,03AUG2013,183,Placebo,Placebo,0,Time to First Dermatologic Event,TTDE,183,02FEB2013,03AUG2013,1,Study Completion Date,ADSL,RFENDT,,Y
CDISCPILOT01,701,01-701-1211,76,65-80,2,WHITE,1,F,15NOV2012,12JAN2013,59,Xanomeline Low Dose,Xanomeline Low Dose,54,Time to First Dermatologic Event,TTDE,2,15NOV2012,16NOV2012,0,Dematologic Event Occured,ADAE,ASTDT,1,Y
CDISCPILOT01,701,01-701-1234,69,65-80,2,WHITE,1,M,30MAR2013,22SEP2013,177,Placebo,Placebo,0,Time to First Dermatologic Event,TTDE,177,30MAR2013,22SEP2013,1,Study Completion Date,ADSL,RFENDT,,Y
CDISCPILOT01,701,01-701-1239,56,<65,1,WHITE,1,M,11JAN2014,10JUL2014,181,Xanomeline High Dose,Xanomeline High Dose,81,Time to First Dermatologic Event,TTDE,2,11JAN2014,12JAN2014,0,Dematologic Event Occured,ADAE,ASTDT,1,Y
CDISCPILOT01,701,01-701-1275,61,<65,1,AMERICAN INDIAN OR ALASKA NATIVE,6,M,07FEB2014,31MAY2014,114,Xanomeline High Dose,Xanomeline High Dose,81,Time to First Dermatologic Event,TTDE,18,07FEB2014,24FEB2014,0,Dematologic Event Occured,ADAE,ASTDT,3,Y
CDISCPILOT01,701,01-701-1287,56,<65,1,WHITE,1,F,25JAN2014,26JUL2014,183,Xanomeline High Dose,Xanomeline High Dose,81,Time to First Dermatologic Event,TTDE,29,25JAN2014,22FEB2014,0,Dematologic Event Occured,ADAE,ASTDT,2,Y
CDISCPILOT01,701,01-701-1294,67,65-80,2,WHITE,1,M,24MAR2013,14JUN2013,83,Xanomeline Low Dose,Xanomeline Low Dose,54,Time to First Dermatologic Event,TTDE,57,24MAR2013,19MAY2013,0,Dematologic Event Occured,ADAE,ASTDT,2,Y
CDISCPILOT01,701,01-701-1302,61,<65,1,WHITE,1,M,29AUG2013,05NOV2013,69,Xanomeline High Dose,Xanomeline High Dose,81,Time to First Dermatologic Event,TTDE,2,29AUG2013,30AUG2013,0,Dematologic Event Occured,ADAE,ASTDT,1,Y
CDISCPILOT01,701,01-701-1317,68,65-80,2,WHITE,1,M,22MAY2014,20NOV2014,183,Xanomeline Low Dose,Xanomeline Low Dose,54,Time to First Dermatologic Event,TTDE,33,22MAY2014,23JUN2014,0,Dematologic Event Occured,ADAE,ASTDT,3,Y
CDISCPILOT01,701,01-701-1324,79,65-80,2,WHITE,1,M,02OCT2012,02APR2013,183,Xanomeline Low Dose,Xanomeline Low Dose,54,Time to First Dermatologic Event,TTDE,21,02OCT2012,22OCT2012,0,Dematologic Event Occured,ADAE,ASTDT,1,Y
CDISCPILOT01,701,01-701-1341,51,<65,1,WHITE,1,M,05JAN2013,26JAN2013,22,Xanomeline Low Dose,Xanomeline Low Dose,54,Time to First Dermatologic Event,TTDE,15,05JAN2013,19JAN2013,0,Dematologic Event Occured,ADAE,ASTDT,1,Y
CDISCPILOT01,701,01-701-1345,63,<65,1,WHITE,1,F,08OCT2013,18MAR2014,162,Placebo,Placebo,0,Time to First Dermatologic Event,TTDE,162,08OCT2013,18MAR2014,1,Study Completion Date,ADSL,RFENDT,,Y
CDISCPILOT01,701,01-701-1360,67,65-80,2,WHITE,1,M,31JUL2013,05AUG2013,6,Xanomeline High Dose,Xanomeline High Dose,81,Time to First Dermatologic Event,TTDE,3,31JUL2013,02AUG2013,0,Dematologic Event Occured,ADAE,ASTDT,1,Y
CDISCPILOT01,701,01-701-1363,81,>80,3,BLACK OR AFRICAN AMERICAN,2,F,30MAY2013,27NOV2013,182,Placebo,Placebo,0,Time to First Dermatologic Event,TTDE,48,30MAY2013,16JUL2013,0,Dematologic Event Occured,ADAE,ASTDT,3,Y
CDISCPILOT01,701,01-701-1383,72,65-80,2,WHITE,1,F,04FEB2013,06AUG2013,184,Xanomeline High Dose,Xanomeline High Dose,81,Time to First Dermatologic Event,TTDE,4,04FEB2013,07FEB2013,0,Dematologic Event Occured,ADAE,ASTDT,1,Y
CDISCPILOT01,701,01-701-1387,87,>80,3,WHITE,1,F,12MAR2014,25MAR2014,14,Placebo,Placebo,0,Time to First Dermatologic Event,TTDE,14,12MAR2014,25MAR2014,1,Study Completion Date,ADSL,RFENDT,,Y
CDISCPILOT01,701,01-701-1392,78,65-80,2,WHITE,1,M,28OCT2012,28APR2013,183,Placebo,Placebo,0,Time to First Dermatologic Event,TTDE,183,28OCT2012,28APR2013,1,Study Completion Date,ADSL,RFENDT,,Y
CDISCPILOT01,701,01-701-1415,85,>80,3,WHITE,1,M,23SEP2013,24MAR2014,183,Placebo,Placebo,0,Time to First Dermatologic Event,TTDE,183,23SEP2013,24MAR2014,1,Study Completion Date,ADSL,RFENDT,,Y
CDISCPILOT01,701,01-701-1429,84,>80,3,WHITE,1,F,19MAR2013,30APR2013,43,Xanomeline Low Dose,Xanomeline Low Dose,54,Time to First Dermatologic Event,TTDE,43,19MAR2013,30APR2013,1,Study Completion Date,ADSL,RFENDT,,Y
CDISCPILOT01,701,01-701-1440,70,65-80,2,WHITE,1,M,08AUG2013,05FEB2014,182,Placebo,Placebo,0,Time to First Dermatologic Event,TTDE,182,08AUG2013,05FEB2014,1,Study Completion Date,ADSL,RFENDT,,Y
CDISCPILOT01,701,01-701-1442,57,<65,1,BLACK OR AFRICAN AMERICAN,2,F,26OCT2013,26APR2014,183,Xanomeline Low Dose,Xanomeline Low Dose,54,Time to First Dermatologic Event,TTDE,77,26OCT2013,10JAN2014,0,Dematologic Event Occured,ADAE,ASTDT,1,Y
CDISCPILOT01,701,01-701-1444,63,<65,1,WHITE,1,M,05JAN2013,12FEB2013,39,Xanomeline High Dose,Xanomeline High Dose,81,Time to First Dermatologic Event,TTDE,15,05JAN2013,19JAN2013,0,Dematologic Event Occured,ADAE,ASTDT,1,Y
CDISCPILOT01,702,01-702-1082,84,>80,3,WHITE,1,F,26JUL2013,13OCT2013,80,Xanomeline Low Dose,Xanomeline Low Dose,54,Time to First Dermatologic Event,TTDE,46,26JUL2013,09SEP2013,0,Dematologic Event Occured,ADAE,ASTDT,9,Y
CDISCPILOT01,703,01-703-1042,64,<65,1,WHITE,1,M,02MAR2013,31AUG2013,183,Placebo,Placebo,0,Time to First Dermatologic Event,TTDE,183,02MAR2013,31AUG2013,1,Study Completion Date,ADSL,RFENDT,,Y
CDISCPILOT01,703,01-703-1076,69,65-80,2,WHITE,1,M,25OCT2013,24DEC2013,61,Xanomeline High Dose,Xanomeline High Dose,81,Time to First Dermatologic Event,TTDE,30,25OCT2013,23NOV2013,0,Dematologic Event Occured,ADAE,ASTDT,4,Y
CDISCPILOT01,703,01-703-1086,71,65-80,2,WHITE,1,M,02SEP2012,04DEC2012,94,Xanomeline Low Dose,Xanomeline Low Dose,54,Time to First Dermatologic Event,TTDE,12,02SEP2012,13SEP2012,0,Dematologic Event Occured,ADAE,ASTDT,1,Y
CDISCPILOT01,703,01-703-1096,81,>80,3,WHITE,1,F,25JAN2013,16MAR2013,51,Placebo,Placebo,0,Time to First Dermatologic Event,TTDE,64,25JAN2013,29MAR2013,1,Study Completion Date,ADSL,RFENDT,,Y
CDISCPILOT01,703,01-703-1100,84,>80,3,WHITE,1,F,13MAR2013,14SEP2013,186,Placebo,Placebo,0,Time to First Dermatologic Event,TTDE,24,13MAR2013,05APR2013,0,Dematologic Event Occured,ADAE,ASTDT,1,Y
CDISCPILOT01,703,01-703-1119,81,>80,3,WHITE,1,F,20FEB2013,13JUN2013,114,Xanomeline Low Dose,Xanomeline Low Dose,54,Time to First Dermatologic Event,TTDE,25,20FEB2013,16MAR2013,0,Dematologic Event Occured,ADAE,ASTDT,1,Y
CDISCPILOT01,703,01-703-1175,75,65-80,2,WHITE,1,M,20DEC2013,26DEC2013,7,Placebo,Placebo,0,Time to First Dermatologic Event,TTDE,12,20DEC2013,31DEC2013,1,Study Completion Date,ADSL,RFENDT,,Y
CDISCPILOT01,703,01-703-1182,84,>80,3,WHITE,1,M,17OCT2013,11DEC2013,56,Xanomeline Low Dose,Xanomeline Low Dose,54,Time to First Dermatologic Event,TTDE,15,17OCT2013,31OCT2013,0,Dematologic Event Occured,ADAE,ASTDT,1,Y
CDISCPILOT01,703,01-703-1197,76,65-80,2,BLACK OR AFRICAN AMERICAN,2,F,16JUN2013,29JUN2013,14,Xanomeline Low Dose,Xanomeline Low Dose,54,Time to First Dermatologic Event,TTDE,37,16JUN2013,22JUL2013,1,Study Completion Date,ADSL,RFENDT,,Y
CDISCPILOT01,703,01-703-1210,72,65-80,2,WHITE,1,F,16MAR2013,06SEP2013,175,Placebo,Placebo,0,Time to First Dermatologic Event,TTDE,175,16MAR2013,06SEP2013,1,Study Completion Date,ADSL,RFENDT,,Y
CDISCPILOT01,703,01-703-1258,78,65-80,2,WHITE,1,F,20JUL2012,11JAN2013,176,Xanomeline High Dose,Xanomeline High Dose,81,Time to First Dermatologic Event,TTDE,47,20JUL2012,04SEP2012,0,Dematologic Event Occured,ADAE,ASTDT,4,Y
CDISCPILOT01,703,01-703-1279,72,65-80,2,WHITE,1,F,13MAY2013,03JUN2013,22,Xanomeline Low Dose,Xanomeline Low Dose,54,Time to First Dermatologic Event,TTDE,41,13MAY2013,22JUN2013,1,Study Completion Date,ADSL,RFENDT,,Y
CDISCPILOT01,703,01-703-1295,88,>80,3,WHITE,1,F,21NOV2013,19APR2014,150,Xanomeline High Dose,Xanomeline High Dose,81,Time to First Dermatologic Event,TTDE,180,21NOV2013,19MAY2014,1,Study Completion Date,ADSL,RFENDT,,Y
CDISCPILOT01,703,01-703-1299,81,>80,3,WHITE,1,F,12SEP2012,13MAR2013,183,Placebo,Placebo,0,Time to First Dermatologic Event,TTDE,183,12SEP2012,13MAR2013,1,Study Completion Date,ADSL,RFENDT,,Y
CDISCPILOT01,703,01-703-1335,67,65-80,2,BLACK OR AFRICAN AMERICAN,2,F,17MAR2014,07MAY2014,52,Xanomeline High Dose,Xanomeline High Dose,81,Time to First Dermatologic Event,TTDE,69,17MAR2014,24MAY2014,1,Study Completion Date,ADSL,RFENDT,,Y
CDISCPILOT01,703,01-703-1379,81,>80,3,BLACK OR AFRICAN AMERICAN,2,F,22SEP2013,21MAR2014,181,Xanomeline Low Dose,Xanomeline Low Dose,54,Time to First Dermatologic Event,TTDE,181,22SEP2013,21MAR2014,1,Study Completion Date,ADSL,RFENDT,,Y
CDISCPILOT01,703,01-703-1403,67,65-80,2,WHITE,1,M,12DEC2012,13DEC2012,2,Xanomeline High Dose,Xanomeline High Dose,81,Time to First Dermatologic Event,TTDE,8,12DEC2012,19DEC2012,1,Study Completion Date,ADSL,RFENDT,,Y
CDISCPILOT01,703,01-703-1439,76,65-80,2,WHITE,1,F,12MAR2014,11SEP2014,184,Xanomeline High Dose,Xanomeline High Dose,81,Time to First Dermatologic Event,TTDE,44,12MAR2014,24APR2014,0,Dematologic Event Occured,ADAE,ASTDT,1,Y
CDISCPILOT01,704,01-704-1008,76,65-80,2,WHITE,1,F,13JAN2013,21FEB2013,40,Xanomeline High Dose,Xanomeline High Dose,81,Time to First Dermatologic Event,TTDE,44,13JAN2013,25FEB2013,1,Study Completion Date,ADSL,RFENDT,,Y
CDISCPILOT01,704,01-704-1009,83,>80,3,WHITE,1,M,27AUG2013,25SEP2013,30,Xanomeline Low Dose,Xanomeline Low Dose,54,Time to First Dermatologic Event,TTDE,19,27AUG2013,14SEP2013,0,Dematologic Event Occured,ADAE,ASTDT,3,Y
CDISCPILOT01,704,01-704-1010,80,65-80,2,WHITE,1,M,21FEB2014,08JUL2014,138,Placebo,Placebo,0,Time to First Dermatologic Event,TTDE,139,21FEB2014,09JUL2014,1,Study Completion Date,ADSL,RFENDT,,Y
CDISCPILOT01,704,01-704-1017,77,65-80,2,WHITE,1,M,06OCT2013,18NOV2013,44,Xanomeline High Dose,Xanomeline High Dose,81,Time to First Dermatologic Event,TTDE,31,06OCT2013,05NOV2013,0,Dematologic Event Occured,ADAE,ASTDT,5,Y
CDISCPILOT01,704,01-704-1025,81,>80,3,WHITE,1,F,27SEP2013,24OCT2013,28,Xanomeline Low Dose,Xanomeline Low Dose,54,Time to First Dermatologic Event,TTDE,64,27SEP2013,29NOV2013,1,Study Completion Date,ADSL,RFENDT,,Y
CDISCPILOT01,704,01-704-1065,75,65-80,2,WHITE,1,M,24OCT2013,22DEC2013,60,Xanomeline High Dose,Xanomeline High Dose,81,Time to First Dermatologic Event,TTDE,4,24OCT2013,27OCT2013,0,Dematologic Event Occured,ADAE,ASTDT,2,Y
CDISCPILOT01,704,01-704-1074,80,65-80,2,WHITE,1,F,22JAN2014,20MAR2014,58,Xanomeline High Dose,Xanomeline High Dose,81,Time to First Dermatologic Event,TTDE,1,22JAN2014,22JAN2014,0,Dematologic Event Occured,ADAE,ASTDT,1,Y
CDISCPILOT01,704,01-704-1093,79,65-80,2,WHITE,1,M,15MAR2013,17JUN2013,95,Xanomeline High Dose,Xanomeline High Dose,81,Time to First Dermatologic Event,TTDE,51,15MAR2013,04MAY2013,0,Dematologic Event Occured,ADAE,ASTDT,3,Y
CDISCPILOT01,704,01-704-1114,77,65-80,2,WHITE,1,M,23JAN2013,07JUL2013,166,Xanomeline Low Dose,Xanomeline Low Dose,54,Time to First Dermatologic Event,TTDE,30,23JAN2013,21FEB2013,0,Dematologic Event Occured,ADAE,ASTDT,1,Y
CDISCPILOT01,704,01-704-1120,71,65-80,2,WHITE,1,F,02DEC2013,01FEB2014,62,Xanomeline Low Dose,Xanomeline Low Dose,54,Time to First Dermatologic Event,TTDE,22,02DEC2013,23DEC2013,0,Dematologic Event Occured,ADAE,ASTDT,1,Y
CDISCPILOT01,704,01-704-1127,84,>80,3,WHITE,1,F,02OCT2013,31MAR2014,181,Placebo,Placebo,0,Time to First Dermatologic Event,TTDE,181,02OCT2013,31MAR2014,1,Study Completion Date,ADSL,RFENDT,,Y
CDISCPILOT01,704,01-704-1135,74,65-80,2,WHITE,1,F,31OCT2013,16MAY2014,198,Xanomeline Low Dose,Xanomeline Low Dose,54,Time to First Dermatologic Event,TTDE,39,31OCT2013,08DEC2013,0,Dematologic Event Occured,ADAE,ASTDT,1,Y
CDISCPILOT01,704,01-704-1164,67,65-80,2,WHITE,1,F,19SEP2012,04APR2013,198,Placebo,Placebo,0,Time to First Dermatologic Event,TTDE,198,19SEP2012,04APR2013,1,Study Completion Date,ADSL,RFENDT,,Y
CDISCPILOT01,704,01-704-1218,81,>80,3,WHITE,1,F,19NOV2012,27MAY2013,190,Xanomeline Low Dose,Xanomeline Low Dose,54,Time to First Dermatologic Event,TTDE,190,19NOV2012,27MAY2013,1,Study Completion Date,ADSL,RFENDT,,Y
CDISCPILOT01,704,01-704-1233,87,>80,3,WHITE,1,F,21MAR2013,14JUL2013,116,Placebo,Placebo,0,Time to First Dermatologic Event,TTDE,116,21MAR2013,14JUL2013,1,Study Completion Date,ADSL,RFENDT,,Y
CDISCPILOT01,704,01-704-1241,86,>80,3,WHITE,1,M,25AUG2013,09OCT2013,46,Xanomeline High Dose,Xanomeline High Dose,81,Time to First Dermatologic Event,TTDE,68,25AUG2013,31OCT2013,1,Study Completion Date,ADSL,RFENDT,,Y
CDISCPILOT01,704,01-704-1260,71,65-80,2,WHITE,1,F,30AUG2012,04NOV2012,67,Placebo,Placebo,0,Time to First Dermatologic Event,TTDE,142,30AUG2012,18JAN2013,1,Study Completion Date,ADSL,RFENDT,,Y
CDISCPILOT01,704,01-704-1266,82,>80,3,WHITE,1,M,13OCT2013,06DEC2013,55,Xanomeline High Dose,Xanomeline High Dose,81,Time to First Dermatologic Event,TTDE,5,13OCT2013,17OCT2013,0,Dematologic Event Occured,ADAE,ASTDT,2,Y
CDISCPILOT01,704,01-704-1323,68,65-80,2,WHITE,1,F,08JUL2013,05AUG2013,29,Xanomeline Low Dose,Xanomeline Low Dose,54,Time to First Dermatologic Event,TTDE,28,08JUL2013,04AUG2013,0,Dematologic Event Occured,ADAE,ASTDT,2,Y
CDISCPILOT01,704,01-704-1325,81,>80,3,WHITE,1,M,23APR2014,04JUL2014,73,Xanomeline Low Dose,Xanomeline Low Dose,54,Time to First Dermatologic Event,TTDE,31,23APR2014,23MAY2014,0,Dematologic Event Occured,ADAE,ASTDT,1,Y
CDISCPILOT01,704,01-704-1332,80,65-80,2,WHITE,1,M,09DEC2013,14FEB2014,68,Xanomeline High Dose,Xanomeline High Dose,81,Time to First Dermatologic Event,TTDE,2,09DEC2013,10DEC2013,0,Dematologic Event Occured,ADAE,ASTDT,1,Y
CDISCPILOT01,704,01-704-1351,70,65-80,2,WHITE,1,M,12OCT2013,18APR2014,189,Placebo,Placebo,0,Time to First Dermatologic Event,TTDE,189,12OCT2013,18APR2014,1,Study Completion Date,ADSL,RFENDT,,Y
CDISCPILOT01,704,01-704-1388,81,>80,3,WHITE,1,M,07DEC2012,11JUN2013,187,Placebo,Placebo,0,Time to First Dermatologic Event,TTDE,195,07DEC2012,19JUN2013,1,Study Completion Date,ADSL,RFENDT,,Y
CDISCPILOT01,704,01-704-1435,74,65-80,2,WHITE,1,M,17NOV2012,09JAN2013,54,Placebo,Placebo,0,Time to First Dermatologic Event,TTDE,57,17NOV2012,12JAN2013,1,Study Completion Date,ADSL,RFENDT,,Y
CDISCPILOT01,704,01-704-1445,75,65-80,2,WHITE,1,M,11MAY2014,01NOV2014,175,Placebo,Placebo,0,Time to First Dermatologic Event,TTDE,175,11MAY2014,01NOV2014,1,Study Completion Date,ADSL,RFENDT,,Y
CDISCPILOT01,705,01-705-1018,69,65-80,2,WHITE,1,F,05JUL2013,12JUL2013,8,Placebo,Placebo,0,Time to First Dermatologic Event,TTDE,8,05JUL2013,12JUL2013,1,Study Completion Date,ADSL,RFENDT,,Y
CDISCPILOT01,705,01-705-1031,56,<65,1,WHITE,1,F,27NOV2013,11MAY2014,166,Xanomeline Low Dose,Xanomeline Low Dose,54,Time to First Dermatologic Event,TTDE,29,27NOV2013,25DEC2013,0,Dematologic Event Occured,ADAE,ASTDT,1,Y
CDISCPILOT01,705,01-705-1059,66,65-80,2,WHITE,1,F,05AUG2013,05DEC2013,123,Placebo,Placebo,0,Time to First Dermatologic Event,TTDE,90,05AUG2013,02NOV2013,0,Dematologic Event Occured,ADAE,ASTDT,1,Y
CDISCPILOT01,705,01-705-1186,84,>80,3,WHITE,1,F,08JAN2014,26JAN2014,19,Placebo,Placebo,0,Time to First Dermatologic Event,TTDE,31,08JAN2014,07FEB2014,1,Study Completion Date,ADSL,RFENDT,,Y
CDISCPILOT01,705,01-705-1199,87,>80,3,WHITE,1,M,16SEP2013,28SEP2013,13,Xanomeline Low Dose,Xanomeline Low Dose,54,Time to First Dermatologic Event,TTDE,14,16SEP2013,29SEP2013,1,Study Completion Date,ADSL,RFENDT,,Y
CDISCPILOT01,705,01-705-1280,56,<65,1,WHITE,1,F,17JAN2014,25JUL2014,190,Xanomeline High Dose,Xanomeline High Dose,81,Time to First Dermatologic Event,TTDE,94,17JAN2014,20APR2014,0,Dematologic Event Occured,ADAE,ASTDT,1,Y
CDISCPILOT01,705,01-705-1281,73,65-80,2,BLACK OR AFRICAN AMERICAN,2,F,28NOV2013,27FEB2014,92,Xanomeline High Dose,Xanomeline High Dose,81,Time to First Dermatologic Event,TTDE,64,28NOV2013,30JAN2014,0,Dematologic Event Occured,ADAE,ASTDT,1,Y
CDISCPILOT01,705,01-705-1282,70,65-80,2,BLACK OR AFRICAN AMERICAN,2,F,26DEC2012,24JUN2013,181,Placebo,Placebo,0,Time to First Dermatologic Event,TTDE,181,26DEC2012,24JUN2013,1,Study Completion Date,ADSL,RFENDT,,Y
CDISCPILOT01,705,01-705-1292,60,<65,1,BLACK OR AFRICAN AMERICAN,2,F,14OCT2013,13MAY2014,212,Xanomeline Low Dose,Xanomeline Low Dose,54,Time to First Dermatologic Event,TTDE,15,14OCT2013,28OCT2013,0,Dematologic Event Occured,ADAE,ASTDT,1,Y
CDISCPILOT01,705,01-705-1303,72,65-80,2,WHITE,1,M,16DEC2013,02JUN2014,169,Xanomeline High Dose,Xanomeline High Dose,81,Time to First Dermatologic Event,TTDE,52,16DEC2013,05FEB2014,0,Dematologic Event Occured,ADAE,ASTDT,1,Y
CDISCPILOT01,705,01-705-1310,74,65-80,2,WHITE,1,F,02NOV2013,23JAN2014,83,Xanomeline High Dose,Xanomeline High Dose,81,Time to First Dermatologic Event,TTDE,13,02NOV2013,14NOV2013,0,Dematologic Event Occured,ADAE,ASTDT,1,Y
CDISCPILOT01,705,01-705-1349,86,>80,3,WHITE,1,F,10MAR2013,08SEP2013,183,Placebo,Placebo,0,Time to First Dermatologic Event,TTDE,183,10MAR2013,08SEP2013,1,Study Completion Date,ADSL,RFENDT,,Y
CDISCPILOT01,705,01-705-1377,63,<65,1,BLACK OR AFRICAN AMERICAN,2,F,04JAN2014,07MAR2014,63,Xanomeline High Dose,Xanomeline High Dose,81,Time to First Dermatologic Event,TTDE,63,04JAN2014,07MAR2014,1,Study Completion Date,ADSL,RFENDT,,Y
CDISCPILOT01,705,01-705-1382,82,>80,3,WHITE,1,M,13MAY2013,13MAY2013,1,Xanomeline High Dose,Xanomeline High Dose,81,Time to First Dermatologic Event,TTDE,1,13MAY2013,13MAY2013,1,Study Completion Date,ADSL,RFENDT,,Y
CDISCPILOT01,705,01-705-1393,84,>80,3,WHITE,1,F,07SEP2012,01FEB2013,148,Xanomeline Low Dose,Xanomeline Low Dose,54,Time to First Dermatologic Event,TTDE,167,07SEP2012,20FEB2013,1,Study Completion Date,ADSL,RFENDT,,Y
CDISCPILOT01,705,01-705-1431,68,65-80,2,WHITE,1,F,23JUN2013,19DEC2013,180,Xanomeline Low Dose,Xanomeline Low Dose,54,Time to First Dermatologic Event,TTDE,180,23JUN2013,19DEC2013,1,Study Completion Date,ADSL,RFENDT,,Y
CDISCPILOT01,706,01-706-1041,64,<65,1,BLACK OR AFRICAN AMERICAN,2,F,31DEC2013,28JUL2014,210,Placebo,Placebo,0,Time to First Dermatologic Event,TTDE,64,31DEC2013,04MAR2014,0,Dematologic Event Occured,ADAE,ASTDT,6,Y
CDISCPILOT01,706,01-706-1049,60,<65,1,WHITE,1,F,14MAY2013,18JUN2013,36,Xanomeline High Dose,Xanomeline High Dose,81,Time to First Dermatologic Event,TTDE,43,14MAY2013,25JUN2013,1,Study Completion Date,ADSL,RFENDT,,Y
CDISCPILOT01,706,01-706-1384,74,65-80,2,WHITE,1,F,15SEP2012,24SEP2012,10,Xanomeline Low Dose,Xanomeline Low Dose,54,Time to First Dermatologic Event,TTDE,1,15SEP2012,15SEP2012,0,Dematologic Event Occured,ADAE,ASTDT,1,Y
CDISCPILOT01,707,01-707-1037,72,65-80,2,WHITE,1,F,20DEC2013,24DEC2013,5,Xanomeline Low Dose,Xanomeline Low Dose,54,Time to First Dermatologic Event,TTDE,20,20DEC2013,08JAN2014,1,Study Completion Date,ADSL,RFENDT,,Y
CDISCPILOT01,707,01-707-1206,65,65-80,2,WHITE,1,M,28OCT2013,26APR2014,181,Placebo,Placebo,0,Time to First Dermatologic Event,TTDE,182,28OCT2013,27APR2014,1,Study Completion Date,ADSL,RFENDT,,Y
CDISCPILOT01,708,01-708-1019,68,65-80,2,WHITE,1,M,20DEC2013,01JAN2014,13,Xanomeline Low Dose,Xanomeline Low Dose,54,Time to First Dermatologic Event,TTDE,35,20DEC2013,23JAN2014,1,Study Completion Date,ADSL,RFENDT,,Y
CDISCPILOT01,708,01-708-1032,62,<65,1,WHITE,1,M,09FEB2013,01MAR2013,21,Xanomeline Low Dose,Xanomeline Low Dose,54,Time to First Dermatologic Event,TTDE,18,09FEB2013,26FEB2013,0,Dematologic Event Occured,ADAE,ASTDT,1,Y
CDISCPILOT01,708,01-708-1084,73,65-80,2,WHITE,1,F,09MAY2013,11NOV2013,187,Xanomeline Low Dose,Xanomeline Low Dose,54,Time to First Dermatologic Event,TTDE,187,09MAY2013,11NOV2013,1,Study Completion Date,ADSL,RFENDT,,Y
CDISCPILOT01,708,01-708-1087,74,65-80,2,WHITE,1,F,22OCT2012,28APR2013,189,Placebo,Placebo,0,Time to First Dermatologic Event,TTDE,189,22OCT2012,28APR2013,1,Study Completion Date,ADSL,RFENDT,,Y
CDISCPILOT01,708,01-708-1158,81,>80,3,WHITE,1,F,08FEB2014,21MAR2014,42,Placebo,Placebo,0,Time to First Dermatologic Event,TTDE,43,08FEB2014,22MAR2014,0,Dematologic Event Occured,ADAE,ASTDT,2,Y
CDISCPILOT01,708,01-708-1171,77,65-80,2,WHITE,1,F,06DEC2012,04JUN2013,181,Placebo,Placebo,0,Time to First Dermatologic Event,TTDE,181,06DEC2012,04JUN2013,1,Study Completion Date,ADSL,RFENDT,,Y
CDISCPILOT01,708,01-708-1178,77,65-80,2,BLACK OR AFRICAN AMERICAN,2,F,29DEC2013,06APR2014,99,Xanomeline High Dose,Xanomeline High Dose,81,Time to First Dermatologic Event,TTDE,71,29DEC2013,09MAR2014,0,Dematologic Event Occured,ADAE,ASTDT,3,Y
CDISCPILOT01,708,01-708-1213,76,65-80,2,WHITE,1,F,09FEB2013,22FEB2013,14,Xanomeline High Dose,Xanomeline High Dose,81,Time to First Dermatologic Event,TTDE,18,09FEB2013,26FEB2013,1,Study Completion Date,ADSL,RFENDT,,Y
CDISCPILOT01,708,01-708-1216,78,65-80,2,WHITE,1,M,24OCT2012,29NOV2012,37,Xanomeline High Dose,Xanomeline High Dose,81,Time to First Dermatologic Event,TTDE,14,24OCT2012,06NOV2012,0,Dematologic Event Occured,ADAE,ASTDT,1,Y
CDISCPILOT01,708,01-708-1236,86,>80,3,WHITE,1,F,21SEP2013,21SEP2013,1,Xanomeline High Dose,Xanomeline High Dose,81,Time to First Dermatologic Event,TTDE,6,21SEP2013,26SEP2013,1,Study Completion Date,ADSL,RFENDT,,Y
CDISCPILOT01,708,01-708-1253,61,<65,1,WHITE,1,M,07MAY2013,05NOV2013,183,Placebo,Placebo,0,Time to First Dermatologic Event,TTDE,183,07MAY2013,05NOV2013,1,Study Completion Date,ADSL,RFENDT,,Y
CDISCPILOT01,708,01-708-1272,82,>80,3,WHITE,1,M,06FEB2013,22MAR2013,45,Xanomeline Low Dose,Xanomeline Low Dose,54,Time to First Dermatologic Event,TTDE,22,06FEB2013,27FEB2013,0,Dematologic Event Occured,ADAE,ASTDT,4,Y
CDISCPILOT01,708,01-708-1286,80,65-80,2,BLACK OR AFRICAN AMERICAN,2,F,10SEP2013,08MAR2014,180,Placebo,Placebo,0,Time to First Dermatologic Event,TTDE,3,10SEP2013,12SEP2013,0,Dematologic Event Occured,ADAE,ASTDT,1,Y
CDISCPILOT01,708,01-708-1296,57,<65,1,BLACK OR AFRICAN AMERICAN,2,M,14JUN2013,12DEC2013,182,Placebo,Placebo,0,Time to First Dermatologic Event,TTDE,83,14JUN2013,04SEP2013,0,Dematologic Event Occured,ADAE,ASTDT,3,Y
CDISCPILOT01,708,01-708-1297,61,<65,1,WHITE,1,M,25JAN2013,03MAY2013,99,Xanomeline Low Dose,Xanomeline Low Dose,54,Time to First Dermatologic Event,TTDE,68,25JAN2013,02APR2013,0,Dematologic Event Occured,ADAE,ASTDT,1,Y
CDISCPILOT01,708,01-708-1316,74,65-80,2,WHITE,1,F,23AUG2013,01MAR2014,191,Placebo,Placebo,0,Time to First Dermatologic Event,TTDE,177,23AUG2013,15FEB2014,0,Dematologic Event Occured,ADAE,ASTDT,2,Y
CDISCPILOT01,708,01-708-1336,73,65-80,2,WHITE,1,M,07DEC2012,05JUN2013,181,Xanomeline High Dose,Xanomeline High Dose,81,Time to First Dermatologic Event,TTDE,37,07DEC2012,12JAN2013,0,Dematologic Event Occured,ADAE,ASTDT,2,Y
CDISCPILOT01,708,01-708-1342,59,<65,1,WHITE,1,F,29DEC2012,28JUN2013,182,Placebo,Placebo,0,Time to First Dermatologic Event,TTDE,182,29DEC2012,28JUN2013,1,Study Completion Date,ADSL,RFENDT,,Y
CDISCPILOT01,708,01-708-1347,61,<65,1,WHITE,1,F,20APR2013,18JUN2013,60,Xanomeline High Dose,Xanomeline High Dose,81,Time to First Dermatologic Event,TTDE,55,20APR2013,13JUN2013,0,Dematologic Event Occured,ADAE,ASTDT,1,Y
CDISCPILOT01,708,01-708-1348,79,65-80,2,WHITE,1,F,05AUG2013,13FEB2014,193,Xanomeline Low Dose,Xanomeline Low Dose,54,Time to First Dermatologic Event,TTDE,119,05AUG2013,01DEC2013,0,Dematologic Event Occured,ADAE,ASTDT,3,Y
CDISCPILOT01,708,01-708-1353,87,>80,3,BLACK OR AFRICAN AMERICAN,2,F,04JUL2013,28AUG2013,56,Xanomeline Low Dose,Xanomeline Low Dose,54,Time to First Dermatologic Event,TTDE,69,04JUL2013,10SEP2013,1,Study Completion Date,ADSL,RFENDT,,Y
CDISCPILOT01,708,01-708-1372,84,>80,3,WHITE,1,M,12APR2013,19APR2013,8,Xanomeline High Dose,Xanomeline High Dose,81,Time to First Dermatologic Event,TTDE,29,12APR2013,10MAY2013,1,Study Completion Date,ADSL,RFENDT,,Y
CDISCPILOT01,708,01-708-1378,67,65-80,2,BLACK OR AFRICAN AMERICAN,2,M,03SEP2013,28JAN2014,148,Placebo,Placebo,0,Time to First Dermatologic Event,TTDE,148,03SEP2013,28JAN2014,1,Study Completion Date,ADSL,RFENDT,,Y
CDISCPILOT01,708,01-708-1406,71,65-80,2,WHITE,1,F,26DEC2013,02JUL2014,189,Xanomeline High Dose,Xanomeline High Dose,81,Time to First Dermatologic Event,TTDE,189,26DEC2013,02JUL2014,1,Study Completion Date,ADSL,RFENDT,,Y
CDISCPILOT01,708,01-708-1428,84,>80,3,WHITE,1,F,09NOV2013,14DEC2013,36,Xanomeline Low Dose,Xanomeline Low Dose,54,Time to First Dermatologic Event,TTDE,32,09NOV2013,10DEC2013,0,Dematologic Event Occured,ADAE,ASTDT,2,Y
CDISCPILOT01,709,01-709-1001,76,65-80,2,WHITE,1,F,08OCT2013,08APR2014,183,Placebo,Placebo,0,Time to First Dermatologic Event,TTDE,183,08OCT2013,08APR2014,1,Study Completion Date,ADSL,RFENDT,,Y
CDISCPILOT01,709,01-709-1007,54,<65,1,WHITE,1,F,31JUL2012,28AUG2012,29,Xanomeline Low Dose,Xanomeline Low Dose,54,Time to First Dermatologic Event,TTDE,17,31JUL2012,16AUG2012,0,Dematologic Event Occured,ADAE,ASTDT,1,Y
CDISCPILOT01,709,01-709-1020,72,65-80,2,WHITE,1,F,01DEC2012,01JUN2013,183,Xanomeline Low Dose,Xanomeline Low Dose,54,Time to First Dermatologic Event,TTDE,27,01DEC2012,27DEC2012,0,Dematologic Event Occured,ADAE,ASTDT,1,Y
CDISCPILOT01,709,01-709-1029,82,>80,3,WHITE,1,M,25DEC2012,26JUN2013,184,Xanomeline High Dose,Xanomeline High Dose,81,Time to First Dermatologic Event,TTDE,24,25DEC2012,17JAN2013,0,Dematologic Event Occured,ADAE,ASTDT,2,Y
CDISCPILOT01,709,01-709-1081,86,>80,3,WHITE,1,F,18JAN2014,27APR2014,100,Xanomeline Low Dose,Xanomeline Low Dose,54,Time to First Dermatologic Event,TTDE,80,18JAN2014,07APR2014,0,Dematologic Event Occured,ADAE,ASTDT,1,Y
CDISCPILOT01,709,01-709-1088,69,65-80,2,WHITE,1,M,12APR2014,09OCT2014,181,Placebo,Placebo,0,Time to First Dermatologic Event,TTDE,27,12APR2014,08MAY2014,0,Dematologic Event Occured,ADAE,ASTDT,1,Y
CDISCPILOT01,709,01-709-1099,79,65-80,2,WHITE,1,F,25OCT2013,25APR2014,183,Xanomeline High Dose,Xanomeline High Dose,81,Time to First Dermatologic Event,TTDE,19,25OCT2013,12NOV2013,0,Dematologic Event Occured,ADAE,ASTDT,2,Y
CDISCPILOT01,709,01-709-1102,71,65-80,2,WHITE,1,F,15JAN2013,27MAR2013,72,Xanomeline Low Dose,Xanomeline Low Dose,54,Time to First Dermatologic Event,TTDE,28,15JAN2013,11FEB2013,0,Dematologic Event Occured,ADAE,ASTDT,1,Y
CDISCPILOT01,709,01-709-1168,72,65-80,2,WHITE,1,F,02AUG2013,26SEP2013,56,Xanomeline High Dose,Xanomeline High Dose,81,Time to First Dermatologic Event,TTDE,16,02AUG2013,17AUG2013,0,Dematologic Event Occured,ADAE,ASTDT,1,Y
CDISCPILOT01,709,01-709-1217,77,65-80,2,WHITE,1,M,04MAR2013,11JUN2013,100,Xanomeline Low Dose,Xanomeline Low Dose,54,Time to First Dermatologic Event,TTDE,23,04MAR2013,26MAR2013,0,Dematologic Event Occured,ADAE,ASTDT,3,Y
CDISCPILOT01,709,01-709-1238,69,65-80,2,WHITE,1,M,15MAY2013,06AUG2013,84,Xanomeline High Dose,Xanomeline High Dose,81,Time to First Dermatologic Event,TTDE,16,15MAY2013,30MAY2013,0,Dematologic Event Occured,ADAE,ASTDT,2,Y
CDISCPILOT01,709,01-709-1259,82,>80,3,WHITE,1,M,26JAN2013,13JUN2013,139,Placebo,Placebo,0,Time to First Dermatologic Event,TTDE,139,26JAN2013,13JUN2013,1,Study Completion Date,ADSL,RFENDT,,Y
CDISCPILOT01,709,01-709-1285,87,>80,3,WHITE,1,M,24MAR2013,23MAY2013,61,Xanomeline Low Dose,Xanomeline Low Dose,54,Time to First Dermatologic Event,TTDE,27,24MAR2013,19APR2013,0,Dematologic Event Occured,ADAE,ASTDT,2,Y
CDISCPILOT01,709,01-709-1301,62,<65,1,WHITE,1,F,19JUL2013,17JAN2014,183,Placebo,Placebo,0,Time to First Dermatologic Event,TTDE,183,19JUL2013,17JAN2014,1,Study Completion Date,ADSL,RFENDT,,Y
CDISCPILOT01,709,01-709-1306,60,<65,1,WHITE,1,F,03FEB2014,16JUN2014,134,Placebo,Placebo,0,Time to First Dermatologic Event,TTDE,77,03FEB2014,20APR2014,0,Dematologic Event Occured,ADAE,ASTDT,1,Y
CDISCPILOT01,709,01-709-1309,65,65-80,2,WHITE,1,M,19JUN2013,19DEC2013,184,Xanomeline High Dose,Xanomeline High Dose,81,Time to First Dermatologic Event,TTDE,2,19JUN2013,20JUN2013,0,Dematologic Event Occured,ADAE,ASTDT,7,Y
CDISCPILOT01,709,01-709-1312,68,65-80,2,WHITE,1,F,20APR2014,19OCT2014,183,Placebo,Placebo,0,Time to First Dermatologic Event,TTDE,28,20APR2014,17MAY2014,0,Dematologic Event Occured,ADAE,ASTDT,1,Y
CDISCPILOT01,709,01-709-1326,75,65-80,2,WHITE,1,F,05APR2013,02OCT2013,181,Xanomeline Low Dose,Xanomeline Low Dose,54,Time to First Dermatologic Event,TTDE,27,05APR2013,01MAY2013,0,Dematologic Event Occured,ADAE,ASTDT,1,Y
CDISCPILOT01,709,01-709-1329,70,65-80,2,WHITE,1,M,15AUG2013,25AUG2013,11,Xanomeline High Dose,Xanomeline High Dose,81,Time to First Dermatologic Event,TTDE,15,15AUG2013,29AUG2013,1,Study Completion Date,ADSL,RFENDT,,Y
CDISCPILOT01,709,01-709-1339,81,>80,3,WHITE,1,M,23DEC2012,24JUN2013,184,Placebo,Placebo,0,Time to First Dermatologic Event,TTDE,184,23DEC2012,24JUN2013,1,Study Completion Date,ADSL,RFENDT,,Y
CDISCPILOT01,709,01-709-1424,77,65-80,2,WHITE,1,M,03MAR2013,07MAR2013,5,Xanomeline High Dose,Xanomeline High Dose,81,Time to First Dermatologic Event,TTDE,6,03MAR2013,08MAR2013,1,Study Completion Date,ADSL,RFENDT,,Y
CDISCPILOT01,710,01-710-1002,88,>80,3,WHITE,1,M,14JAN2014,18JAN2014,5,Xanomeline Low Dose,Xanomeline Low Dose,54,Time to First Dermatologic Event,TTDE,5,14JAN2014,18JAN2014,1,Study Completion Date,ADSL,RFENDT,,Y
CDISCPILOT01,710,01-710-1006,77,65-80,2,WHITE,1,M,10FEB2013,09AUG2013,181,Xanomeline High Dose,Xanomeline High Dose,81,Time to First Dermatologic Event,TTDE,20,10FEB2013,01MAR2013,0,Dematologic Event Occured,ADAE,ASTDT,3,Y
CDISCPILOT01,710,01-710-1021,79,65-80,2,BLACK OR AFRICAN AMERICAN,2,M,27SEP2013,29OCT2013,33,Xanomeline High Dose,Xanomeline High Dose,81,Time to First Dermatologic Event,TTDE,25,27SEP2013,21OCT2013,0,Dematologic Event Occured,ADAE,ASTDT,2,Y
CDISCPILOT01,710,01-710-1027,83,>80,3,WHITE,1,M,28FEB2014,29AUG2014,183,Placebo,Placebo,0,Time to First Dermatologic Event,TTDE,183,28FEB2014,29AUG2014,1,Study Completion Date,ADSL,RFENDT,,Y
CDISCPILOT01,710,01-710-1045,83,>80,3,WHITE,1,F,03JUN2013,13AUG2013,72,Xanomeline Low Dose,Xanomeline Low Dose,54,Time to First Dermatologic Event,TTDE,30,03JUN2013,02JUL2013,0,Dematologic Event Occured,ADAE,ASTDT,3,Y
CDISCPILOT01,710,01-710-1053,84,>80,3,WHITE,1,F,26DEC2012,10FEB2013,47,Xanomeline Low Dose,Xanomeline Low Dose,54,Time to First Dermatologic Event,TTDE,34,26DEC2012,28JAN2013,0,Dematologic Event Occured,ADAE,ASTDT,1,Y
CDISCPILOT01,710,01-710-1060,82,>80,3,WHITE,1,M,01JAN2013,05JUL2013,186,Placebo,Placebo,0,Time to First Dermatologic Event,TTDE,21,01JAN2013,21JAN2013,0,Dematologic Event Occured,ADAE,ASTDT,4,Y
CDISCPILOT01,710,01-710-1070,85,>80,3,WHITE,1,F,08SEP2012,22JAN2013,137,Xanomeline High Dose,Xanomeline High Dose,81,Time to First Dermatologic Event,TTDE,96,08SEP2012,12DEC2012,0,Dematologic Event Occured,ADAE,ASTDT,2,Y
CDISCPILOT01,710,01-710-1077,76,65-80,2,WHITE,1,F,17NOV2013,18MAY2014,183,Placebo,Placebo,0,Time to First Dermatologic Event,TTDE,26,17NOV2013,12DEC2013,0,Dematologic Event Occured,ADAE,ASTDT,1,Y
CDISCPILOT01,710,01-710-1078,81,>80,3,WHITE,1,F,17SEP2013,23MAR2014,188,Placebo,Placebo,0,Time to First Dermatologic Event,TTDE,188,17SEP2013,23MAR2014,1,Study Completion Date,ADSL,RFENDT,,Y
CDISCPILOT01,710,01-710-1083,89,>80,3,WHITE,1,F,22JUL2013,01AUG2013,11,Placebo,Placebo,0,Time to First Dermatologic Event,TTDE,13,22JUL2013,03AUG2013,1,Study Completion Date,ADSL,RFENDT,,Y
CDISCPILOT01,710,01-710-1137,79,65-80,2,BLACK OR AFRICAN AMERICAN,2,F,11OCT2013,13NOV2013,34,Xanomeline High Dose,Xanomeline High Dose,81,Time to First Dermatologic Event,TTDE,3,11OCT2013,13OCT2013,0,Dematologic Event Occured,ADAE,ASTDT,1,Y
CDISCPILOT01,710,01-710-1142,76,65-80,2,WHITE,1,F,02OCT2012,20OCT2012,19,Xanomeline High Dose,Xanomeline High Dose,81,Time to First Dermatologic Event,TTDE,22,02OCT2012,23OCT2012,1,Study Completion Date,ADSL,RFENDT,,Y
CDISCPILOT01,710,01-710-1154,84,>80,3,WHITE,1,M,29MAR2014,27APR2014,30,Xanomeline Low Dose,Xanomeline Low Dose,54,Time to First Dermatologic Event,TTDE,21,29MAR2014,18APR2014,0,Dematologic Event Occured,ADAE,ASTDT,1,Y
CDISCPILOT01,710,01-710-1166,81,>80,3,WHITE,1,F,30NOV2012,19MAR2013,110,Xanomeline Low Dose,Xanomeline Low Dose,54,Time to First Dermatologic Event,TTDE,121,30NOV2012,30MAR2013,1,Study Completion Date,ADSL,RFENDT,,Y
CDISCPILOT01,710,01-710-1183,80,65-80,2,WHITE,1,F,16NOV2013,17MAY2014,183,Placebo,Placebo,0,Time to First Dermatologic Event,TTDE,183,16NOV2013,17MAY2014,1,Study Completion Date,ADSL,RFENDT,,Y
CDISCPILOT01,710,01-710-1187,78,65-80,2,WHITE,1,F,10NOV2012,12MAY2013,184,Xanomeline High Dose,Xanomeline High Dose,81,Time to First Dermatologic Event,TTDE,44,10NOV2012,23DEC2012,0,Dematologic Event Occured,ADAE,ASTDT,1,Y
CDISCPILOT01,710,01-710-1235,56,<65,1,WHITE,1,F,26SEP2012,27MAR2013,183,Xanomeline Low Dose,Xanomeline Low Dose,54,Time to First Dermatologic Event,TTDE,126,26SEP2012,29JAN2013,0,Dematologic Event Occured,ADAE,ASTDT,3,Y
CDISCPILOT01,710,01-710-1249,79,65-80,2,WHITE,1,M,28DEC2013,28JUN2014,183,Xanomeline High Dose,Xanomeline High Dose,81,Time to First Dermatologic Event,TTDE,46,28DEC2013,11FEB2014,0,Dematologic Event Occured,ADAE,ASTDT,1,Y
CDISCPILOT01,710,01-710-1264,78,65-80,2,WHITE,1,M,13JUN2013,11OCT2013,121,Placebo,Placebo,0,Time to First Dermatologic Event,TTDE,70,13JUN2013,21AUG2013,0,Dematologic Event Occured,ADAE,ASTDT,2,Y
CDISCPILOT01,710,01-710-1270,83,>80,3,WHITE,1,F,12FEB2014,01MAR2014,18,Xanomeline Low Dose,Xanomeline Low Dose,54,Time to First Dermatologic Event,TTDE,12,12FEB2014,23FEB2014,0,Dematologic Event Occured,ADAE,ASTDT,1,Y
CDISCPILOT01,710,01-710-1271,86,>80,3,WHITE,1,F,27SEP2012,21NOV2012,56,Placebo,Placebo,0,Time to First Dermatologic Event,TTDE,67,27SEP2012,02DEC2012,1,Study Completion Date,ADSL,RFENDT,,Y
CDISCPILOT01,710,01-710-1278,81,>80,3,WHITE,1,M,24DEC2012,26FEB2013,65,Xanomeline High Dose,Xanomeline High Dose,81,Time to First Dermatologic Event,TTDE,46,24DEC2012,07FEB2013,0,Dematologic Event Occured,ADAE,ASTDT,2,Y
CDISCPILOT01,710,01-710-1300,78,65-80,2,WHITE,1,F,15DEC2012,15FEB2013,63,Xanomeline Low Dose,Xanomeline Low Dose,54,Time to First Dermatologic Event,TTDE,48,15DEC2012,31JAN2013,0,Dematologic Event Occured,ADAE,ASTDT,1,Y
CDISCPILOT01,710,01-710-1314,78,65-80,2,WHITE,1,F,24APR2013,23MAY2013,30,Placebo,Placebo,0,Time to First Dermatologic Event,TTDE,32,24APR2013,25MAY2013,1,Study Completion Date,ADSL,RFENDT,,Y
CDISCPILOT01,710,01-710-1315,83,>80,3,WHITE,1,F,27FEB2013,06JUL2013,130,Placebo,Placebo,0,Time to First Dermatologic Event,TTDE,77,27FEB2013,14MAY2013,0,Dematologic Event Occured,ADAE,ASTDT,2,Y
CDISCPILOT01,710,01-710-1354,73,65-80,2,WHITE,1,M,11NOV2012,01MAY2013,172,Xanomeline High Dose,Xanomeline High Dose,81,Time to First Dermatologic Event,TTDE,50,11NOV2012,30DEC2012,0,Dematologic Event Occured,ADAE,ASTDT,1,Y
CDISCPILOT01,710,01-710-1358,82,>80,3,WHITE,1,M,17SEP2012,09FEB2013,146,Xanomeline Low Dose,Xanomeline Low Dose,54,Time to First Dermatologic Event,TTDE,97,17SEP2012,22DEC2012,0,Dematologic Event Occured,ADAE,ASTDT,1,Y
CDISCPILOT01,710,01-710-1368,88,>80,3,WHITE,1,F,23OCT2013,24APR2014,184,Placebo,Placebo,0,Time to First Dermatologic Event,TTDE,184,23OCT2013,24APR2014,1,Study Completion Date,ADSL,RFENDT,,Y
CDISCPILOT01,710,01-710-1385,77,65-80,2,WHITE,1,M,29OCT2012,18FEB2013,113,Xanomeline Low Dose,Xanomeline Low Dose,54,Time to First Dermatologic Event,TTDE,51,29OCT2012,18DEC2012,0,Dematologic Event Occured,ADAE,ASTDT,4,Y
CDISCPILOT01,710,01-710-1408,80,65-80,2,WHITE,1,M,05JAN2013,12JUL2013,189,Xanomeline High Dose,Xanomeline High Dose,81,Time to First Dermatologic Event,TTDE,51,05JAN2013,24FEB2013,0,Dematologic Event Occured,ADAE,ASTDT,3,Y
CDISCPILOT01,711,01-711-1012,67,65-80,2,WHITE,1,F,03APR2013,29APR2013,27,Xanomeline High Dose,Xanomeline High Dose,81,Time to First Dermatologic Event,TTDE,14,03APR2013,16APR2013,0,Dematologic Event Occured,ADAE,ASTDT,1,Y
CDISCPILOT01,711,01-711-1036,70,65-80,2,BLACK OR AFRICAN AMERICAN,2,M,29JUL2012,10FEB2013,197,Placebo,Placebo,0,Time to First Dermatologic Event,TTDE,197,29JUL2012,10FEB2013,1,Study Completion Date,ADSL,RFENDT,,Y
CDISCPILOT01,711,01-711-1143,76,65-80,2,WHITE,1,F,03APR2013,30MAY2013,58,Xanomeline Low Dose,Xanomeline Low Dose,54,Time to First Dermatologic Event,TTDE,46,03APR2013,18MAY2013,0,Dematologic Event Occured,ADAE,ASTDT,8,Y
CDISCPILOT01,711,01-711-1433,84,>80,3,WHITE,1,F,27JAN2013,05FEB2013,10,Xanomeline High Dose,Xanomeline High Dose,81,Time to First Dermatologic Event,TTDE,11,27JAN2013,06FEB2013,1,Study Completion Date,ADSL,RFENDT,,Y
CDISCPILOT01,713,01-713-1043,78,65-80,2,WHITE,1,F,15SEP2013,24MAR2014,191,Xanomeline Low Dose,Xanomeline Low Dose,54,Time to First Dermatologic Event,TTDE,12,15SEP2013,26SEP2013,0,Dematologic Event Occured,ADAE,ASTDT,1,Y
CDISCPILOT01,713,01-713-1073,74,65-80,2,BLACK OR AFRICAN AMERICAN,2,F,30MAR2014,05OCT2014,190,Xanomeline Low Dose,Xanomeline Low Dose,54,Time to First Dermatologic Event,TTDE,107,30MAR2014,14JUL2014,0,Dematologic Event Occured,ADAE,ASTDT,1,Y
CDISCPILOT01,713,01-713-1106,74,65-80,2,WHITE,1,M,31OCT2012,06MAY2013,188,Xanomeline High Dose,Xanomeline High Dose,81,Time to First Dermatologic Event,TTDE,188,31OCT2012,06MAY2013,1,Study Completion Date,ADSL,RFENDT,,Y
CDISCPILOT01,713,01-713-1141,79,65-80,2,WHITE,1,M,31MAY2013,01JUL2013,32,Xanomeline High Dose,Xanomeline High Dose,81,Time to First Dermatologic Event,TTDE,22,31MAY2013,21JUN2013,0,Dematologic Event Occured,ADAE,ASTDT,1,Y
CDISCPILOT01,713,01-713-1179,64,<65,1,WHITE,1,F,09AUG2013,05FEB2014,181,Placebo,Placebo,0,Time to First Dermatologic Event,TTDE,181,09AUG2013,05FEB2014,1,Study Completion Date,ADSL,RFENDT,,Y
CDISCPILOT01,713,01-713-1209,77,65-80,2,WHITE,1,F,27MAY2013,22NOV2013,180,Xanomeline High Dose,Xanomeline High Dose,81,Time to First Dermatologic Event,TTDE,7,27MAY2013,02JUN2013,0,Dematologic Event Occured,ADAE,ASTDT,2,Y
CDISCPILOT01,713,01-713-1256,71,65-80,2,WHITE,1,M,19SEP2012,25MAR2013,188,Placebo,Placebo,0,Time to First Dermatologic Event,TTDE,42,19SEP2012,30OCT2012,0,Dematologic Event Occured,ADAE,ASTDT,1,Y
CDISCPILOT01,713,01-713-1269,73,65-80,2,WHITE,1,M,27JAN2014,28JUL2014,183,Placebo,Placebo,0,Time to First Dermatologic Event,TTDE,7,27JAN2014,02FEB2014,0,Dematologic Event Occured,ADAE,ASTDT,1,Y
CDISCPILOT01,713,01-713-1448,71,65-80,2,WHITE,1,F,19JAN2014,16MAY2014,118,Xanomeline Low Dose,Xanomeline Low Dose,54,Time to First Dermatologic Event,TTDE,60,19JAN2014,19MAR2014,0,Dematologic Event Occured,ADAE,ASTDT,1,Y
CDISCPILOT01,714,01-714-1035,88,>80,3,WHITE,1,F,17APR2014,16OCT2014,183,Placebo,Placebo,0,Time to First Dermatologic Event,TTDE,183,17APR2014,16OCT2014,1,Study Completion Date,ADSL,RFENDT,,Y
CDISCPILOT01,714,01-714-1068,79,65-80,2,WHITE,1,F,08AUG2013,08OCT2013,62,Xanomeline Low Dose,Xanomeline Low Dose,54,Time to First Dermatologic Event,TTDE,5,08AUG2013,12AUG2013,0,Dematologic Event Occured,ADAE,ASTDT,1,Y
CDISCPILOT01,714,01-714-1195,75,65-80,2,WHITE,1,M,26APR2013,23OCT2013,181,Xanomeline Low Dose,Xanomeline Low Dose,54,Time to First Dermatologic Event,TTDE,18,26APR2013,13MAY2013,0,Dematologic Event Occured,ADAE,ASTDT,3,Y
CDISCPILOT01,714,01-714-1288,77,65-80,2,BLACK OR AFRICAN AMERICAN,2,M,04DEC2013,17JUN2014,196,Xanomeline High Dose,Xanomeline High Dose,81,Time to First Dermatologic Event,TTDE,39,04DEC2013,11JAN2014,0,Dematologic Event Occured,ADAE,ASTDT,3,Y
CDISCPILOT01,714,01-714-1375,78,65-80,2,WHITE,1,F,26FEB2013,07SEP2013,194,Placebo,Placebo,0,Time to First Dermatologic Event,TTDE,33,26FEB2013,30MAR2013,0,Dematologic Event Occured,ADAE,ASTDT,1,Y
CDISCPILOT01,714,01-714-1425,81,>80,3,WHITE,1,M,15AUG2013,19AUG2013,5,Xanomeline High Dose,Xanomeline High Dose,81,Time to First Dermatologic Event,TTDE,8,15AUG2013,22AUG2013,1,Study Completion Date,ADSL,RFENDT,,Y
CDISCPILOT01,715,01-715-1085,77,65-80,2,WHITE,1,F,16FEB2013,18AUG2013,184,Xanomeline Low Dose,Xanomeline Low Dose,54,Time to First Dermatologic Event,TTDE,184,16FEB2013,18AUG2013,1,Study Completion Date,ADSL,RFENDT,,Y
CDISCPILOT01,715,01-715-1107,65,65-80,2,WHITE,1,M,26FEB2013,07MAY2013,71,Xanomeline Low Dose,Xanomeline Low Dose,54,Time to First Dermatologic Event,TTDE,71,26FEB2013,07MAY2013,0,Dematologic Event Occured,ADAE,ASTDT,1,Y
CDISCPILOT01,715,01-715-1155,59,<65,1,WHITE,1,F,13DEC2013,25JAN2014,44,Placebo,Placebo,0,Time to First Dermatologic Event,TTDE,135,13DEC2013,26APR2014,1,Study Completion Date,ADSL,RFENDT,,Y
CDISCPILOT01,715,01-715-1207,78,65-80,2,WHITE,1,F,18NOV2012,27MAY2013,191,Placebo,Placebo,0,Time to First Dermatologic Event,TTDE,196,18NOV2012,01JUN2013,1,Study Completion Date,ADSL,RFENDT,,Y
CDISCPILOT01,715,01-715-1319,65,65-80,2,WHITE,1,M,17FEB2013,05MAR2013,17,Xanomeline High Dose,Xanomeline High Dose,81,Time to First Dermatologic Event,TTDE,30,17FEB2013,18MAR2013,1,Study Completion Date,ADSL,RFENDT,,Y
CDISCPILOT01,715,01-715-1321,75,65-80,2,WHITE,1,F,11FEB2014,21APR2014,70,Xanomeline High Dose,Xanomeline High Dose,81,Time to First Dermatologic Event,TTDE,70,11FEB2014,21APR2014,0,Dematologic Event Occured,ADAE,ASTDT,3,Y
CDISCPILOT01,715,01-715-1397,76,65-80,2,WHITE,1,F,03APR2013,02OCT2013,183,Placebo,Placebo,0,Time to First Dermatologic Event,TTDE,184,03APR2013,03OCT2013,1,Study Completion Date,ADSL,RFENDT,,Y
CDISCPILOT01,715,01-715-1405,69,65-80,2,WHITE,1,M,06JUL2013,07JUL2013,2,Xanomeline Low Dose,Xanomeline Low Dose,54,Time to First Dermatologic Event,TTDE,8,06JUL2013,13JUL2013,1,Study Completion Date,ADSL,RFENDT,,Y
CDISCPILOT01,716,01-716-1024,87,>80,3,WHITE,1,F,09JUL2012,20JAN2013,196,Placebo,Placebo,0,Time to First Dermatologic Event,TTDE,196,09JUL2012,20JAN2013,1,Study Completion Date,ADSL,RFENDT,,Y
CDISCPILOT01,716,01-716-1026,73,65-80,2,WHITE,1,F,02APR2014,16OCT2014,198,Placebo,Placebo,0,Time to First Dermatologic Event,TTDE,16,02APR2014,17APR2014,0,Dematologic Event Occured,ADAE,ASTDT,2,Y
CDISCPILOT01,716,01-716-1030,83,>80,3,WHITE,1,F,28DEC2013,02JAN2014,6,Xanomeline High Dose,Xanomeline High Dose,81,Time to First Dermatologic Event,TTDE,14,28DEC2013,10JAN2014,1,Study Completion Date,ADSL,RFENDT,,Y
CDISCPILOT01,716,01-716-1044,74,65-80,2,WHITE,1,M,27APR2013,03NOV2013,191,Placebo,Placebo,0,Time to First Dermatologic Event,TTDE,191,27APR2013,03NOV2013,1,Study Completion Date,ADSL,RFENDT,,Y
CDISCPILOT01,716,01-716-1063,80,65-80,2,WHITE,1,M,09MAY2013,25AUG2013,109,Xanomeline Low Dose,Xanomeline Low Dose,54,Time to First Dermatologic Event,TTDE,57,09MAY2013,04JUL2013,0,Dematologic Event Occured,ADAE,ASTDT,3,Y
CDISCPILOT01,716,01-716-1071,78,65-80,2,WHITE,1,F,08JUN2013,01AUG2013,55,Xanomeline High Dose,Xanomeline High Dose,81,Time to First Dermatologic Event,TTDE,55,08JUN2013,01AUG2013,1,Study Completion Date,ADSL,RFENDT,,Y
CDISCPILOT01,716,01-716-1094,82,>80,3,WHITE,1,M,19DEC2012,24JAN2013,37,Xanomeline Low Dose,Xanomeline Low Dose,54,Time to First Dermatologic Event,TTDE,39,19DEC2012,26JAN2013,1,Study Completion Date,ADSL,RFENDT,,Y
CDISCPILOT01,716,01-716-1103,79,65-80,2,WHITE,1,M,20MAR2014,20SEP2014,185,Xanomeline Low Dose,Xanomeline Low Dose,54,Time to First Dermatologic Event,TTDE,112,20MAR2014,09JUL2014,0,Dematologic Event Occured,ADAE,ASTDT,1,Y
CDISCPILOT01,716,01-716-1108,86,>80,3,WHITE,1,F,12FEB2013,10AUG2013,180,Placebo,Placebo,0,Time to First Dermatologic Event,TTDE,79,12FEB2013,01MAY2013,0,Dematologic Event Occured,ADAE,ASTDT,2,Y
CDISCPILOT01,716,01-716-1151,83,>80,3,WHITE,1,F,01FEB2013,11MAY2013,100,Xanomeline Low Dose,Xanomeline Low Dose,54,Time to First Dermatologic Event,TTDE,43,01FEB2013,15MAR2013,0,Dematologic Event Occured,ADAE,ASTDT,2,Y
CDISCPILOT01,716,01-716-1157,85,>80,3,WHITE,1,M,02OCT2013,04APR2014,185,Xanomeline Low Dose,Xanomeline Low Dose,54,Time to First Dermatologic Event,TTDE,24,02OCT2013,25OCT2013,0,Dematologic Event Occured,ADAE,ASTDT,2,Y
CDISCPILOT01,716,01-716-1160,83,>80,3,WHITE,1,F,05APR2013,11OCT2013,190,Placebo,Placebo,0,Time to First Dermatologic Event,TTDE,35,05APR2013,09MAY2013,0,Dematologic Event Occured,ADAE,ASTDT,1,Y
CDISCPILOT01,716,01-716-1167,68,65-80,2,WHITE,1,M,08OCT2012,12APR2013,187,Xanomeline Low Dose,Xanomeline Low Dose,54,Time to First Dermatologic Event,TTDE,41,08OCT2012,17NOV2012,0,Dematologic Event Occured,ADAE,ASTDT,1,Y
CDISCPILOT01,716,01-716-1177,72,65-80,2,WHITE,1,M,02SEP2014,05MAR2015,185,Placebo,Placebo,0,Time to First Dermatologic Event,TTDE,185,02SEP2014,05MAR2015,1,Study Completion Date,ADSL,RFENDT,,Y
CDISCPILOT01,716,01-716-1189,81,>80,3,WHITE,1,M,09OCT2012,27FEB2013,142,Xanomeline High Dose,Xanomeline High Dose,81,Time to First Dermatologic Event,TTDE,89,09OCT2012,05JAN2013,0,Dematologic Event Occured,ADAE,ASTDT,3,Y
CDISCPILOT01,716,01-716-1229,73,65-80,2,WHITE,1,F,20FEB2013,31MAR2013,40,Xanomeline High Dose,Xanomeline High Dose,81,Time to First Dermatologic Event,TTDE,1,20FEB2013,20FEB2013,0,Dematologic Event Occured,ADAE,ASTDT,1,Y
CDISCPILOT01,716,01-716-1298,76,65-80,2,WHITE,1,F,08APR2013,28JUN2013,82,Xanomeline Low Dose,Xanomeline Low Dose,54,Time to First Dermatologic Event,TTDE,15,08APR2013,22APR2013,0,Dematologic Event Occured,ADAE,ASTDT,1,Y
CDISCPILOT01,716,01-716-1308,76,65-80,2,WHITE,1,F,28AUG2013,07OCT2013,41,Placebo,Placebo,0,Time to First Dermatologic Event,TTDE,24,28AUG2013,20SEP2013,0,Dematologic Event Occured,ADAE,ASTDT,1,Y
CDISCPILOT01,716,01-716-1311,78,65-80,2,WHITE,1,M,14MAY2014,21SEP2014,131,Xanomeline Low Dose,Xanomeline Low Dose,54,Time to First Dermatologic Event,TTDE,15,14MAY2014,28MAY2014,0,Dematologic Event Occured,ADAE,ASTDT,1,Y
CDISCPILOT01,716,01-716-1364,84,>80,3,WHITE,1,F,04JUL2013,09JAN2014,190,Xanomeline High Dose,Xanomeline High Dose,81,Time to First Dermatologic Event,TTDE,46,04JUL2013,18AUG2013,0,Dematologic Event Occured,ADAE,ASTDT,1,Y
CDISCPILOT01,716,01-716-1373,74,65-80,2,WHITE,1,M,14DEC2012,27FEB2013,76,Xanomeline High Dose,Xanomeline High Dose,81,Time to First Dermatologic Event,TTDE,2,14DEC2012,15DEC2012,0,Dematologic Event Occured,ADAE,ASTDT,2,Y
CDISCPILOT01,716,01-716-1418,80,65-80,2,WHITE,1,F,05MAY2013,20NOV2013,200,Xanomeline High Dose,Xanomeline High Dose,81,Time to First Dermatologic Event,TTDE,1,05MAY2013,05MAY2013,0,Dematologic Event Occured,ADAE,ASTDT,1,Y
CDISCPILOT01,716,01-716-1441,85,>80,3,WHITE,1,M,22JAN2014,22JUL2014,182,Placebo,Placebo,0,Time to First Dermatologic Event,TTDE,110,22JAN2014,11MAY2014,0,Dematologic Event Occured,ADAE,ASTDT,1,Y
CDISCPILOT01,716,01-716-1447,72,65-80,2,WHITE,1,F,16DEC2013,17JUN2014,184,Xanomeline High Dose,Xanomeline High Dose,81,Time to First Dermatologic Event,TTDE,30,16DEC2013,14JAN2014,0,Dematologic Event Occured,ADAE,ASTDT,2,Y
CDISCPILOT01,717,01-717-1004,80,65-80,2,WHITE,1,F,14JAN2014,16JUL2014,184,Xanomeline Low Dose,Xanomeline Low Dose,54,Time to First Dermatologic Event,TTDE,2,14JAN2014,15JAN2014,0,Dematologic Event Occured,ADAE,ASTDT,6,Y
CDISCPILOT01,717,01-717-1109,84,>80,3,WHITE,1,M,27JAN2014,28JUL2014,183,Xanomeline High Dose,Xanomeline High Dose,81,Time to First Dermatologic Event,TTDE,20,27JAN2014,15FEB2014,0,Dematologic Event Occured,ADAE,ASTDT,2,Y
CDISCPILOT01,717,01-717-1174,73,65-80,2,WHITE,1,M,22JAN2013,24JUL2013,184,Xanomeline High Dose,Xanomeline High Dose,81,Time to First Dermatologic Event,TTDE,5,22JAN2013,26JAN2013,0,Dematologic Event Occured,ADAE,ASTDT,1,Y
CDISCPILOT01,717,01-717-1201,85,>80,3,WHITE,1,F,19DEC2013,21FEB2014,65,Placebo,Placebo,0,Time to First Dermatologic Event,TTDE,1,19DEC2013,19DEC2013,0,Dematologic Event Occured,ADAE,ASTDT,1,Y
CDISCPILOT01,717,01-717-1344,64,<65,1,WHITE,1,F,11JAN2014,14MAR2014,63,Placebo,Placebo,0,Time to First Dermatologic Event,TTDE,63,11JAN2014,14MAR2014,1,Study Completion Date,ADSL,RFENDT,,Y
CDISCPILOT01,717,01-717-1357,77,65-80,2,WHITE,1,M,01MAY2013,14OCT2013,167,Xanomeline High Dose,Xanomeline High Dose,81,Time to First Dermatologic Event,TTDE,23,01MAY2013,23MAY2013,0,Dematologic Event Occured,ADAE,ASTDT,2,Y
CDISCPILOT01,717,01-717-1446,75,65-80,2,WHITE,1,F,01SEP2013,03MAR2014,184,Xanomeline Low Dose,Xanomeline Low Dose,54,Time to First Dermatologic Event,TTDE,19,01SEP2013,19SEP2013,0,Dematologic Event Occured,ADAE,ASTDT,3,Y
CDISCPILOT01,718,01-718-1066,79,65-80,2,WHITE,1,F,07JUL2013,16JUL2013,10,Xanomeline Low Dose,Xanomeline Low Dose,54,Time to First Dermatologic Event,TTDE,24,07JUL2013,30JUL2013,1,Study Completion Date,ADSL,RFENDT,,Y
CDISCPILOT01,718,01-718-1079,67,65-80,2,WHITE,1,F,19SEP2012,31OCT2012,43,Xanomeline Low Dose,Xanomeline Low Dose,54,Time to First Dermatologic Event,TTDE,17,19SEP2012,05OCT2012,0,Dematologic Event Occured,ADAE,ASTDT,2,Y
CDISCPILOT01,718,01-718-1101,82,>80,3,BLACK OR AFRICAN AMERICAN,2,M,17FEB2013,31JUL2013,165,Xanomeline High Dose,Xanomeline High Dose,81,Time to First Dermatologic Event,TTDE,167,17FEB2013,02AUG2013,1,Study Completion Date,ADSL,RFENDT,,Y
CDISCPILOT01,718,01-718-1139,77,65-80,2,WHITE,1,M,19MAY2013,17NOV2013,183,Placebo,Placebo,0,Time to First Dermatologic Event,TTDE,183,19MAY2013,17NOV2013,1,Study Completion Date,ADSL,RFENDT,,Y
CDISCPILOT01,718,01-718-1150,73,65-80,2,WHITE,1,F,19JAN2013,29JUL2013,192,Placebo,Placebo,0,Time to First Dermatologic Event,TTDE,56,19JAN2013,15MAR2013,0,Dematologic Event Occured,ADAE,ASTDT,3,Y
CDISCPILOT01,718,01-718-1170,80,65-80,2,WHITE,1,F,16SEP2013,12OCT2013,27,Xanomeline Low Dose,Xanomeline Low Dose,54,Time to First Dermatologic Event,TTDE,49,16SEP2013,03NOV2013,1,Study Completion Date,ADSL,RFENDT,,Y
CDISCPILOT01,718,01-718-1172,74,65-80,2,WHITE,1,M,21SEP2013,29NOV2013,70,Placebo,Placebo,0,Time to First Dermatologic Event,TTDE,70,21SEP2013,29NOV2013,1,Study Completion Date,ADSL,RFENDT,,Y
CDISCPILOT01,718,01-718-1250,82,>80,3,WHITE,1,F,21SEP2013,31JAN2014,133,Xanomeline Low Dose,Xanomeline Low Dose,54,Time to First Dermatologic Event,TTDE,100,21SEP2013,29DEC2013,0,Dematologic Event Occured,ADAE,ASTDT,9,Y
CDISCPILOT01,718,01-718-1254,78,65-80,2,WHITE,1,M,10JUL2013,09JAN2014,184,Xanomeline Low Dose,Xanomeline Low Dose,54,Time to First Dermatologic Event,TTDE,35,10JUL2013,13AUG2013,0,Dematologic Event Occured,ADAE,ASTDT,4,Y
CDISCPILOT01,718,01-718-1328,86,>80,3,WHITE,1,M,01FEB2013,18APR2013,77,Xanomeline High Dose,Xanomeline High Dose,81,Time to First Dermatologic Event,TTDE,51,01FEB2013,23MAR2013,0,Dematologic Event Occured,ADAE,ASTDT,1,Y
CDISCPILOT01,718,01-718-1355,79,65-80,2,WHITE,1,M,28FEB2013,29AUG2013,183,Placebo,Placebo,0,Time to First Dermatologic Event,TTDE,9,28FEB2013,08MAR2013,0,Dematologic Event Occured,ADAE,ASTDT,1,Y
CDISCPILOT01,718,01-718-1371,69,65-80,2,WHITE,1,F,26APR2013,01AUG2013,98,Xanomeline High Dose,Xanomeline High Dose,81,Time to First Dermatologic Event,TTDE,29,26APR2013,24MAY2013,0,Dematologic Event Occured,ADAE,ASTDT,3,Y
CDISCPILOT01,718,01-718-1427,74,65-80,2,BLACK OR AFRICAN AMERICAN,2,F,17DEC2012,11FEB2013,57,Xanomeline High Dose,Xanomeline High Dose,81,Time to First Dermatologic Event,TTDE,42,17DEC2012,27JAN2013,0,Dematologic Event Occured,ADAE,ASTDT,9,Y
